{
  "resourceType": "Bundle",
  "id": "c757873d-ec9a-4326-a141-556f43239520",
  "identifier": {
    "system": "urn:ietf:rfc:3986",
    "value": "d2f9f649-5555-4826-868b-84e015c1f1be"
  },
  "type": "document",
  "timestamp": "2017-12-11T14:30:00.000+08:00",
  "entry": [
    {
      "fullUrl": "Composition/30551ce1-5a28-4356-b684-1e639094ad4d",
      "resource": {
        "resourceType": "Composition",
        "id": "30551ce1-5a28-4356-b684-1e639094ad4d",
        "extension": [
          {
            "url": "https://ehealth.gov.hk/FHIR/99999999-ComplianceLevel",
            "valueString": "3"
          },
          {
            "url": "https://ehealth.gov.hk/FHIR/99999999-DomainVersion",
            "valueString": "eHRSS-1.1.0"
          },
          {
            "url": "https://ehealth.gov.hk/FHIR/99999999-UploadMode",
            "valueString": "NBL"
          },
          {
            "url": "https://ehealth.gov.hk/FHIR/99999999-SendingLocation",
            "valueString": "BRANCHA"
          }
        ],
        "status": "final",
        "type": {
          "coding": [
            {
              "system": "https://ehealth.gov.hk/FHIR",
              "display": "Hong Kong eHR Healthcare Document"
            }
          ],
					"text": "Hong Kong eHR Healthcare Document"
        },
        "subject": {
          "reference": "Patient/2b90dd2b-2dab-4c75-9bb9-a355e07401e8"
        },
        "date": "2023-12-11T14:30:00.000+08:00",
        "author": [
          {
            "reference": "Organization/3b3703a9-7a26-427c-9352-4e41f046d85e",
						"display": "Hong Kong Hospital"
          }
        ],
        "title": "Hong Kong eHR Healthcare Document",
        "section": [
          {
            "title": "Allergy (Chinese Medicine System)",
            "code": {
              "coding": [
                {
                  "system": "https://ehealth.gov.hk/FHIR/datadomain",
                  "code": "CMAL1",
									"display": "Allergy (Chinese Medicine System)"
								}
							],
							"text": "Allergy (Chinese Medicine System)"
            },
            "entry": [
              {
                "extension": [
                  {
                    "url": "https://ehealth.gov.hk/FHIR/99999999-RecordCreateDatetime",
                    "valueDateTime": "2017-03-04T08:30:00+08:00"
                  },
                  {
                    "url": "https://ehealth.gov.hk/FHIR/99999999-RecordCreateInstIdentifier",
                    "valueString": "2345679033"
                  },
                  {
                    "url": "https://ehealth.gov.hk/FHIR/99999999-RecordCreateInstName",
                    "valueString": "Hong Kong Hospital"
                  },
                  {
                    "url": "https://ehealth.gov.hk/FHIR/99999999-RecordLastUpdateDatetime",
                    "valueDateTime": "2017-03-04T08:30:00.000+08:00"
                  },
                  {
                    "url": "https://ehealth.gov.hk/FHIR/99999999-RecordUpdateInstIdentifier",
                    "valueString": "2345679033"
                  },
                  {
                    "url": "https://ehealth.gov.hk/FHIR/99999999-RecordUpdateInstName",
                    "valueString": "Hong Kong Hospital"
                  },
                  {
                    "url": "https://ehealth.gov.hk/FHIR/99999999-TransactionDateTime",
                    "valueDateTime": "2017-03-04T08:30:00.000+08:00"
                  },
                  {
                    "url": "https://ehealth.gov.hk/FHIR/99999999-TransactonType",
                    "valueString": "U"
                  },
                  {
                    "url": "https://ehealth.gov.hk/FHIR/99999999-LastUpdateDateTime",
                    "valueDateTime": "2017-03-04T08:30:00.000+08:00"
                  }
                ],
                "reference": "AllergyIntolerance/c7781f44-6df8-4a8b-9e06-0b34263a47c5",
                "identifier": {
                  "system": "https://ehealth.gov.hk/FHIR/HCP/local/Recordkey",
                  "value": "CMAL1001"
                }
              }
            ]
          }
        ]
      }
    },
    {
      "fullUrl": "Organization/3b3703a9-7a26-427c-9352-4e41f",
      "resource": {
        "resourceType": "Organization",
        "id": "3b3703a9-7a26-427c-9352-4e41f046d85e",
				"identifier": [
					{
						"system": "https://ehealth.gov.hk/FHIR/pvdr",
						"value": "2345679033"
					}
				],
				"name": "Hong Kong Hospital",
				"alias": [
					"HKH"
				]
      }
    },
    {
      "fullUrl": "Patient/2b90dd2b-2dab-4c75-9bb9-a355e07401e8",
      "resource": {
        "resourceType": "Patient",
        "id": "2b90dd2b-2dab-4c75-9bb9-a355e07401e8",
        "identifier": [
          {
            "type": {
              "coding": [
                {
                  "system": "https://ehealth.gov.hk/FHIR/typeofID-ext",
                  "code": "EHRNO"
                }
              ]
            },
            "value": "234567808800"
          },
          {
            "type": {
              "coding": [
                {
                  "system": "https://ehealth.gov.hk/FHIR/typeofID-ext",
                  "code": "ID"
                }
              ]
            },
            "value": "Q1730351"
          }
        ],
        "name": [
          {
            "text": "CHAN, MAN MAN",
            "family": "CHAN",
            "given": [
              "MAN MAN"
            ]
          }
        ],
        "gender": "female",
        "birthDate": "1974-12-25"
      }
    },
    {
      "fullUrl": "AllergyIntolerance/c7781f44-6df8-4a8b-9e06-0b34263a47c5",
      "resource": {
        "resourceType": "AllergyIntolerance",
        "id": "c7781f44-6df8-4a8b-9e06-0b34263a47c5",
        "extension": [
          {
            "url": "https://ehealth.gov.hk/FHIR/1003138-Typeofallergencode",
            "valueString": "Drug"
          },
          {
            "url": "https://ehealth.gov.hk/FHIR/1003139-TypeofAllergenDesc",
            "valueString": "Drug allergen"
          },
          {
            "url": "https://ehealth.gov.hk/FHIR/1003140-TypeofAllergenLocalDesc",
            "valueString": "Drug allergen"
          }
        ],
        "clinicalStatus": {
          "coding": [
            {
              "system": "http://terminology.hl7.org/CodeSystem/allergyintolerance-clinical",
              "code": "active",
              "display": "Active"
            }
          ]
        },
        "verificationStatus": {
          "coding": [
            {
              "system": "https://eHealth.gov.hk/FHIR/LevelofCertainty",
              "code": "S",
              "display": "Suspected"
            }
          ],
          "text": "Suspected"
        },
        "type": "allergy",
        "code": {
          "coding": [
            {
              "system": "https://ehealth.org.hk/FHIR/HKCTT",
              "code": "234556",
              "display": "Panadol (paracetamol) oral tablet500 mg"
            },
            {
              "system": "https://ehealth.gov.hk/FHIR/HCP/local/allergenCode",
              "code": "a1234",
              "display": "Peni G"
            }
          ]
        },
        "patient": {
          "reference": "Patient/2b90dd2b-2dab-4c75-9bb9-a355e07401e8"
        },
        "encounter": {
          "reference": "Encounter/169281c8-fb76-4e9c-b30f-3dfb3a7f53f2"
        },
        "reaction": [
          {
            "manifestation": [
              {
                "coding": [
                  {
                    "system": "https://ehealth.gov.hk/FHIR/Allergyreacton",
                    "code": "2",
                    "display": "Allergic rhinitis"
                  }
                ],
                "text": "Allergic rhinitis"
              }
            ],
            "note": [
              {
                "text": "abc"
              }
            ]
          }
        ]
      }
    },
    {
      "fullUrl": "Encounter/169281c8-fb76-4e9c-b30f-3dfb3a7f53f2",
      "resource": {
        "resourceType": "Encounter",
        "id": "169281c8-fb76-4e9c-b30f-3dfb3a7f53f2",
        "extension": [
          {
            "url": "https://ehealth.gov.hk/FHIR/99999999-AttendanceInstIdentifier",
            "valueString": "8840188537"
          }
        ],
        "identifier": [
          {
            "system": "https://ehealth.gov.hk/FHIR/HCP/local/EpisodeNum",
            "value": "EP-12345"
          }
        ],
        "status": "finished",
        "class": {
          "system": "https://ehealth.gov.hk/FHIR/class",
          "code": "UNKNOWN",
          "display": "Unknown status"
        }
      }
    }
  ]
}