{
  "resourceType": "Bundle",
  "id": "e8c6fafe-652e-427c-a1c0-eec2deb210e7",
  "identifier": {
    "system": "urn:ietf:rfc:3986",
    "value": "urn:uuid:e8c6fafe-652e-427c-a1c0-eec2deb210e7"
  },
  "type": "document",
  "timestamp": "2023-10-24T10:04:48.865+08:00",
  "entry": [
    {
      "fullUrl": "Composition/30551ce1-5a28-4356-b684-1e639094ad4d",
      "resource": {
        "resourceType": "Composition",
        "id": "30551ce1-5a28-4356-b684-1e639094ad4d",
        "extension": [
          {
            "url": "https://ehealth.gov.hk/FHIR/99999999-ComplianceLevel",
            "valueString": "3"
          },
          {
            "url": "https://ehealth.gov.hk/FHIR/99999999-DomainVersion",
            "valueString": "eHRSS-1.1.0"
          },
          {
            "url": "https://ehealth.gov.hk/FHIR/99999999-UploadMode",
            "valueString": "NBL"
          },
          {
            "url": "https://ehealth.gov.hk/FHIR/99999999-SendingLocation",
            "valueString": "BRANCHA"
          }
        ],
        "identifier": {
          "system": "urn:oid:2.16.724.4.8.10.200.10",
          "value": "e8c6fafe-652e-427c-a1c0-eec2deb210e7"
        },
        "status": "final",
        "type": {
          "coding": [
            {
              "system": "https://ehealth.gov.hk/FHIR",
              "display": "Hong Kong eHR Healthcare Document"
            }
          ],
          "text": "Hong Kong eHR Healthcare Document"
        },
        "subject": {
          "reference": "Patient/d58dd75b-cf09-4a1c-b913-c9e867f27616"
        },
        "date": "2023-10-24T10:04:48.865+08:00",
        "author": [
          {
            "reference": "Organization/3b3703a9-7a26-427c-9352-4e41f046d85e",
            "display": "Hong Kong Hospital"
          }
        ],
        "title": "Hong Kong eHR Healthcare Document",
        "section": [
          {
            "title": "Chinese Medicine Problem",
            "code": {
              "coding": [
                {
                  "system": "https://ehealth.gov.hk/FHIR/datadomain",
                  "code": "CMPROB",
                  "display": "Chinese Medicine Problem"
                }
              ],
              "text": "Chinese Medicine Problem"
            },
            "entry": [
              {
                "extension": [
                  {
                    "url": "https://ehealth.gov.hk/FHIR/99999999-RecordCreateDatetime",
                    "valueDateTime": "2023-10-24T10:04:48.865+08:00"
                  },
                  {
                    "url": "https://ehealth.gov.hk/FHIR/99999999-RecordCreateInstIdentifier",
                    "valueString": "2345679033"
                  },
                  {
                    "url": "https://ehealth.gov.hk/FHIR/99999999-RecordCreateInstName",
                    "valueString": "Hong Kong Hospital"
                  },
                  {
                    "url": "https://ehealth.gov.hk/FHIR/99999999-RecordLastUpdateDatetime",
                    "valueDateTime": "2023-10-24T10:04:48.865+08:00"
                  },
                  {
                    "url": "https://ehealth.gov.hk/FHIR/99999999-RecordUpdateInstIdentifier",
                    "valueString": "2345679033"
                  },
                  {
                    "url": "https://ehealth.gov.hk/FHIR/99999999-RecordUpdateInstName",
                    "valueString": "Hong Kong Hospital"
                  },
                  {
                    "url": "https://ehealth.gov.hk/FHIR/99999999-TransactionDateTime",
                    "valueDateTime": "2023-10-24T10:04:48.865+08:00"
                  },
                  {
                    "url": "https://ehealth.gov.hk/FHIR/99999999-TransactonType",
                    "valueString": "U"
                  },
                  {
                    "url": "https://ehealth.gov.hk/FHIR/99999999-LastUpdateDateTime",
                    "valueDateTime": "2023-10-24T10:04:48.865+08:00"
                  }
                ],
                "reference": "Condition/c7781f44-6df8-4a8b-9e06-0b34263a47c5",
                "identifier": {
                  "system": "https://ehealth.gov.hk/FHIR/HCP/local/Recordkey",
                  "value": "CMPROB001"
                }
              },
              {
                "reference": "CarePlan/6e56ca5c-d1cb-4ede-861d-74f82cc03900",
                "identifier": {
                  "system": "https://ehealth.gov.hk/FHIR/HCP/local/Recordkey",
                  "value": "CMPROB001"
                }
              }
            ]
          }
        ]
      }
    },
    {
      "fullUrl": "Organization/3b3703a9-7a26-427c-9352-4e41f046d85e",
      "resource": {
        "resourceType": "Organization",
        "id": "3b3703a9-7a26-427c-9352-4e41f046d85e",
				"identifier": [
					{
						"system": "https://ehealth.gov.hk/FHIR/pvdr",
						"value": "2345679033"
					}
				],
        "name": "Hong Kong Hospital"
      }
    },
    {
      "fullUrl": "Patient/2b90dd2b-2dab-4c75-9bb9-a355e07401e8",
      "resource": {
        "resourceType": "Patient",
        "id": "d58dd75b-cf09-4a1c-b913-c9e867f27616",
        "identifier": [
          {
            "type": {
              "coding": [
                {
                  "system": "https://ehealth.gov.hk/FHIR/typeofID-ext",
                  "code": "EHRNO"
                }
              ]
            },
            "value": "234567808800"
          },
          {
            "type": {
              "coding": [
                {
                  "system": "https://ehealth.gov.hk/FHIR/typeofID-ext",
                  "code": "ID"
                }
              ]
            },
            "value": "Q1730351"
          }
        ],
        "name": [
          {
            "text": "CHAN, MAN MAN",
            "family": "CHAN",
            "given": [
              "MAN MAN"
            ]
          }
        ],
        "gender": "female",
        "birthDate": "1974-12-25"
      }
    },
    {
      "fullUrl": "Condition/c7781f44-6df8-4a8b-9e06-0b34263a47c5",
      "resource": {
        "resourceType": "Condition",
        "id": "c7781f44-6df8-4a8b-9e06-0b34263a47c5",
        "code": {
          "coding": [
            {
              "system": "https://ehealth.gov.hk/FHIR/disease/HKCTT",
              "code": "9700004",
              "display": "咳嗽"
            },
            {
              "system": "https://ehealth.gov.hk/FHIR/HCP/local/disease",
              "code": "ABC013",
              "display": "咳嗽病",
              "extension": [
                {
                  "url": "https://ehealth.gov.hk/FHIR/1006693-CMdiseaseComment",
                  "valueString": "Patient has reported intermittent symptoms."
                }
              ]
            },
            {
              "system": "https://ehealth.gov.hk/FHIR/pattern/HKCTT",
              "code": "9710010",
              "display": "風寒襲肺"
            },
            {
              "system": "https://ehealth.gov.hk/FHIR/HCP/local/pattern",
              "code": "XYZ012",
              "display": "風寒襲肺",
              "extension": [
                {
                  "url": "https://ehealth.gov.hk/FHIR/1006699-CMpatternComment",
                  "valueString": "Patient has reported intermittent symptoms."
                }
              ]
            }
          ]
        },
        "subject": {
          "reference": "Patient/d58dd75b-cf09-4a1c-b913-c9e867f27616"
        },
        "encounter": {
          "reference": "Encounter/169281c8-fb76-4e9c-b30f-3dfb3a7f53f2"
        },
        "recordedDate": "2023-10-24T10:04:48.865+08:00"
      }
    },
    {
      "fullUrl": "Encounter/169281c8-fb76-4e9c-b30f-3dfb3a7f53f2",
      "resource": {
        "resourceType": "Encounter",
        "id": "169281c8-fb76-4e9c-b30f-3dfb3a7f53f2",
        "extension": [
          {
            "url": "https://ehealth.gov.hk/FHIR/99999999-AttendanceInstIdentifier",
            "valueString": "9938744799"
          }
        ],
        "identifier": [
          {
            "system": "https://ehealth.gov.hk/FHIR/HCP/local/EpisodeNum",
            "value": "OP123456"
          }
        ],
        "status": "finished",
        "class": {
          "system": "https://ehealth.gov.hk/FHIR/class",
          "code": "UNKNOWN",
          "display": "Unknown status"
        }
      }
    },
    {
      "fullUrl": "CarePlan/6e56ca5c-d1cb-4ede-861d-74f82cc03900",
      "resource": {
        "resourceType": "CarePlan",
        "id": "6e56ca5c-d1cb-4ede-861d-74f82cc03900",
        "status": "active",
        "intent": "plan",
        "subject": {
          "reference": "Patient/d58dd75b-cf09-4a1c-b913-c9e867f27616"
        },
        "addresses": [
          {
            "reference": "Condition/c7781f44-6df8-4a8b-9e06-0b34263a47c5"
          }
        ],
        "activity": [
          {
            "detail": {
              "code": {
                "coding": [
                  {
                    "system": "https://www.ehealth.gov.hk/FHIR/approach/HKCTT",
                    "code": "9720448",
                    "display": "溫肺止咳"
                  },
                  {
                    "system": "https://www.ehealth.gov.hk/FHIR/HCP/local/approach",
                    "code": "RST012",
                    "display": "溫肺止咳"
                  }
                ]
              },
              "status": "scheduled"
            }
          }
        ],
        "note": [
          {
            "text": "abc"
          }
        ]
      }
    }
  ]
}
